Folder: PublicSpace/chemistry/dsc_format

Note: README.md
部外秘ではないコード・データはこのレポジトリで共有

File: hk320-pdms26k.csv
Time / min,Temp / dC,DSC / microW mg-1,DDSC / microW mg-1min-1
0,36.6715,-0.0559006,4.85102
0.575,26.8817,625.728,-1390.61
1.15,15.0804,258.973,962.758
1.725,10.5543,189.531,-30.0805
2.3,5.34599,188.176,2.41957
2.875,-0.0775334,185.724,7.34387
3.45,-5.6212,179.492,13.7682
4.025,-11.2279,170.549,17.5658
4.6,-16.8634,159.154,21.0314
5.175,-22.5201,146.681,22.5757
5.75,-28.1831,133.146,24.3251
6.325,-33.847,118.792,25.5586
6.9,-39.5078,103.637,26.786
7.475,-45.1662,87.3696,24.5928
8.05,-50.8207,71.4113,29.642
8.625,-56.472,54.0083,29.5888
9.2,-62.1135,35.9684,27.2564
9.775,-67.5894,11.6613,67.8712
10.35,-72.2561,-31.473,72.0713
10.925,-76.0544,-61.6159,5.09461
11.5,-79.0983,25.636,-380.704
12.075,-81.588,149.517,279.916
12.65,-83.7213,-95.7914,269.222
13.225,-85.4518,-162.63,47.1049
13.8,-86.8371,-175.421,43.1396
14.375,-87.0735,-221.823,21.7462
14.95,-87.0889,-228.733,6.37563
15.525,-87.0705,-232.47,5.06437
16.1,-87.0396,-234.86,3.1915
16.675,-86.9802,-224.404,-99.0282
17.25,-84.7149,-313.2,66.2505
17.825,-81.8258,-317.366,1.18609
18.4,-78.9515,-315.934,-7.52286
18.975,-76.1142,-311.074,-8.51072
19.55,-73.2608,-306.499,-5.9321
20.125,-70.4306,-303.939,-2.83148
20.7,-67.5831,-303.332,-0.290523
21.275,-64.7524,-304.53,4.72993
21.85,-61.9106,-308.331,9.35138
22.425,-59.0766,-317.411,22.474
23,-56.2359,-337.253,51.7211
23.575,-53.4065,-384.343,117.023
24.15,-50.5743,-442.141,-20.857
24.725,-47.7039,-306.823,-209.005
25.3,-44.841,-255.769,-29.2944
25.875,-41.9962,-247.242,-9.24306
26.45,-39.1419,-242.266,-8.45786
27.025,-36.2945,-237.414,-8.28207
27.6,-33.4383,-232.718,-8.15433
28.175,-30.5916,-228.03,-8.15219
28.75,-27.734,-223.355,-7.92174
29.325,-24.8874,-218.808,-7.80368
29.9,-22.0243,-214.375,-7.66366
30.475,-19.1771,-210.003,-7.41076
31.05,-16.3172,-205.771,-7.14336
31.625,-13.4651,-201.649,-7.40579
32.2,-10.6044,-197.509,-7.38143
32.775,-7.74449,-193.497,-6.94839
33.35,-4.88455,-189.619,-6.60531
33.925,-2.02466,-185.902,-6.34165
34.5,0.833778,-182.286,-6.33705
35.075,3.69536,-178.581,-6.49016
35.65,6.55447,-174.83,-6.64287
36.225,9.42019,-172.99,-2.89448
36.8,12.2789,-171.244,-3.49958
37.375,15.143,-168.956,-4.48716
37.95,18.0053,-166.247,-5.1552
38.525,20.863,-163.322,-4.98724
39.1,23.7279,-160.233,-5.52213
39.675,26.5886,-157.061,-5.49439
40.25,29.455,-153.876,-5.35049
40.825,32.32,-150.871,-5.17444
41.4,35.1852,-147.936,-5.15571
41.975,38.0523,-144.965,-5.31702
42.55,40.9145,-141.573,-6.38945
43.125,43.7819,-138.056,-5.41712
43.7,46.6438,-135.328,-4.7763
44.275,49.5087,-132.5,-5.05899
44.85,52.3725,-129.652,-4.76647
45.425,55.2322,-126.891,-4.32944
46,58.0992,-124.46,-4.16731
46.575,60.9647,-122.202,-3.71206
47.15,63.8324,-120.057,-3.62015
47.725,66.7022,-117.949,-3.5745
48.3,69.5694,-115.947,-3.17738
48.875,72.4393,-114.004,-3.42875
49.45,75.3058,-112.088,-3.21402
50.025,78.1684,-110.344,-3.11044
50.6,81.0352,-108.537,-3.19416
51.175,83.8983,-106.716,-2.97431
51.75,86.7643,-104.97,-2.90226
52.325,89.6326,-103.29,-2.94013
52.9,92.4934,-101.662,-3.02017
53.475,95.3595,-100.085,-2.62755
54.05,98.2287,-98.6407,-2.29962
54.625,101.095,-97.162,-2.88342
55.2,103.962,-95.3347,-3.30327
55.775,106.827,-93.7171,-2.37556
56.35,109.691,-92.4945,-1.87875
56.925,112.559,-91.5246,-1.77599
57.5,115.425,-90.5114,-1.55
58.075,118.29,-89.7075,-1.16189
58.65,121.1,-103.968,-43.289
59.225,121.416,39.2614,-26.4368
59.8,121.397,48.1441,-8.96019
60.375,121.362,53.6169,-4.74662
60.95,121.335,55.2732,-0.776637
61.525,121.324,55.8547,-1.08123
62.1,121.324,56.6523,-1.78377
62.675,121.329,57.8004,-3.55075
63.25,121.336,59.3737,-4.16936
63.825,120.86,108.294,-512.907
64.4,117.848,192.151,18.4604
64.975,114.961,192.649,-3.13029
65.55,112.082,192.996,-0.875713
66.125,109.206,192.911,0.698032
66.7,106.34,192.315,1.11972
67.275,103.479,191.471,1.74651
67.85,100.613,190.328,2.16861
68.425,97.7513,188.982,2.42612
69,94.891,187.468,2.83962
69.575,92.0295,185.809,3.01853
70.15,89.1708,183.97,3.35833
70.725,86.3099,181.918,3.62772
71.3,83.4505,179.706,3.99823
71.875,80.5956,177.41,4.13497
72.45,77.7338,174.934,4.58163
73.025,74.875,172.313,4.49238
73.6,72.0173,169.383,5.16339
74.175,69.1562,166.296,5.65099
74.75,66.2985,163.07,5.50033
75.325,63.4404,160.062,4.08379
75.9,60.5835,157.836,0.560063
76.475,57.7285,155.562,4.29259
77.05,54.8661,153.069,4.14684
77.625,52.0114,150.431,4.8068
78.2,49.1553,147.566,5.17772
78.775,46.2982,144.629,5.03402
79.35,43.4447,141.942,4.5149
79.925,40.5856,139.43,4.33066
80.5,37.7331,136.694,5.20228
81.075,34.879,133.337,6.49149
81.65,32.0226,129.217,7.70128
82.225,29.1683,124.756,7.73813
82.8,26.3087,120.267,7.96371
83.375,23.4548,115.969,7.71151
83.95,20.5987,111.605,7.67631
84.525,17.7474,107.061,7.94897
85.1,14.8968,102.436,8.03167
85.675,12.043,97.8787,7.90352
86.25,9.19423,93.2779,8.73011
86.825,6.33733,88.6436,7.79217
87.4,3.48769,83.9256,8.44025
87.975,0.631145,78.9844,8.70923
88.55,-2.21895,73.9048,8.99458
89.125,-5.06853,68.7166,9.26847
89.7,-7.91783,63.3388,9.73315
90.275,-10.7608,57.9672,9.43838
90.85,-13.6094,52.2431,10.0566
91.425,-16.4511,46.3918,10.2633
92,-19.2999,40.4767,10.3911
92.575,-22.1383,34.4447,10.6072
93.15,-24.9885,28.1843,11.0064
93.725,-27.8232,21.8752,12.0225
94.3,-30.6726,15.6531,11.3753
94.875,-33.5142,9.11239,11.6582
95.45,-36.3634,2.39081,11.8234
96.025,-39.2057,-4.5186,12.1603
96.6,-42.0496,-11.5574,12.3116
97.175,-44.8863,-18.7643,12.7175
97.75,-47.7258,-26.1878,12.8555
98.325,-50.558,-33.7315,13.3705
98.9,-53.3935,-41.4943,13.568
99.475,-56.2201,-49.5889,14.178
100.05,-59.0513,-57.7681,14.5107
100.625,-61.873,-65.8857,9.80889
101.2,-64.7016,-69.2105,6.79855
101.775,-67.5186,-74.8311,15.5573
102.35,-70.35,-81.2546,13.0495
102.925,-73.1596,-87.6398,7.39689
103.5,-75.9861,-80.7452,-52.8938
104.075,-78.7659,22.9284,-328.974
104.65,-81.4535,134.71,199.773
105.225,-83.7838,-66.4059,278.645
105.8,-85.6505,-147.002,62.7641
106.375,-86.9398,-173.65,151.108
106.95,-87.0518,-212.444,15.4886
107.525,-87.0589,-217.553,6.75796
108.1,-87.0324,-220.553,2.49987
108.675,-87.0049,-222.05,1.29054
109.25,-86.9853,-223.082,1.78259
109.825,-86.9779,-223.921,1.03487
110.4,-86.9777,-224.764,2.22986
110.975,-86.0687,-256.497,263.775
111.55,-83.1639,-306.35,-2.84545
112.125,-80.3007,-305.786,-3.72234
112.7,-77.4489,-301.255,-20.2839
113.275,-74.6065,-295.64,-18.7429
113.85,-71.7631,-291.783,-3.43398
114.425,-68.9271,-290.032,-1.31365
115,-66.0816,-290.242,2.91856
115.575,-63.2486,-292.461,6.71925
116.15,-60.4045,-298.436,15.3306
116.725,-57.5743,-311.675,34.4678
117.3,-54.7348,-343.098,84.7819
117.875,-51.9151,-407.547,124.061
118.45,-49.0604,-372.341,-322.55
119.025,-46.191,-253.082,-68.0065
119.6,-43.3337,-235.89,-12.4464
120.175,-40.4919,-230.62,-7.31511
120.75,-37.638,-225.929,-8.31093
121.325,-34.7914,-221.26,-8.07839
121.9,-31.9374,-216.711,-7.76724
122.475,-29.0877,-212.611,-15.0026
123.05,-26.2311,-207.84,-6.16632
123.625,-23.3739,-203.569,-7.42411
124.2,-20.5185,-199.391,-7.37273
124.775,-17.6617,-195.238,-7.18226
125.35,-14.8084,-191.176,-7.02187
125.925,-11.9428,-187.253,-6.09775
126.5,-9.09053,-183.538,-4.67804
127.075,-6.22797,-179.766,-5.11385
127.65,-3.373,-176.237,-6.14452
128.225,-0.511206,-172.625,-6.64103
128.8,2.34868,-168.954,-6.39928
129.375,5.21218,-165.362,-6.11167
129.95,8.07576,-161.825,-6.0783
130.525,10.9371,-158.336,-5.96173
131.1,13.8018,-154.949,-5.93051
131.675,16.6597,-151.632,-5.66931
132.25,19.5246,-148.504,-5.29542
132.825,22.3866,-145.434,-5.28897
133.4,25.2499,-142.495,-4.99789
133.975,28.1139,-139.692,-4.72328
134.55,30.9751,-137.037,-4.67374
135.125,33.8419,-134.396,-4.56587
135.7,36.7016,-131.845,-4.28563
136.275,39.5662,-129.482,-3.74256
136.85,42.4321,-127.116,-4.09116
137.425,45.2947,-124.857,-3.74931
138,48.1633,-122.625,-3.692
138.575,51.0266,-120.422,-3.55505
139.15,53.8922,-118.346,-3.53397
139.725,56.7569,-116.405,-3.2087
140.3,59.6197,-114.654,-3.11904
140.875,62.4879,-112.937,-2.96039
141.45,65.3504,-111.212,-3.13357
142.025,68.2151,-109.503,-2.8388
142.6,71.0794,-107.9,-2.79233
143.175,73.9405,-106.371,-2.53912
143.75,76.8075,-105.05,-2.30166
144.325,79.6749,-103.743,-2.36266
144.9,82.5414,-102.554,-2.11805
145.475,85.4127,-101.23,-2.77944
146.05,88.2768,-100.175,-0.730375
146.625,91.1443,-99.1764,-1.88387
147.2,94.0131,-98.1193,-1.48142
147.775,96.8759,-97.23,-1.428
148.35,99.7431,-96.3927,-1.51602
148.925,102.609,-95.5462,-1.32032
149.5,105.473,-94.7561,-1.49268
150.075,108.338,-93.8729,-1.61591
150.65,111.203,-92.9638,-1.57027
151.225,114.069,-92.1147,-1.48122
151.8,116.938,-91.2381,-1.27038
152.375,119.803,-90.539,-1.2933
152.95,121.437,25.0656,-171.721
153.525,121.428,41.3681,-13.0202
154.1,121.39,47.015,-6.90908
154.675,121.351,49.2126,-3.59906
155.25,121.327,50.2739,-1.51929
155.825,121.317,51.0021,-1.22657
156.4,121.316,51.7472,-1.32319
156.975,121.322,52.4713,-2.75078
157.55,121.33,52.8453,90.4109
158.125,117.234,326.067,-92.5545
158.7,111.36,313.09,-14.1956
159.275,105.586,317.033,-0.804067
159.85,99.8428,316.438,2.25745
160.425,94.1131,314.806,3.52332
161,88.3891,312.489,4.73843
161.575,82.6699,309.508,5.93061
162.15,76.9547,305.797,6.97868
162.725,71.2425,301.442,8.10208
163.3,65.5296,296.497,8.95856
163.875,59.8191,291.106,9.87234
164.45,54.1101,285.244,10.8484
165.025,48.4048,278.819,11.5329
165.6,42.6992,272.071,11.8334
166.175,36.9945,265.113,12.9674
166.75,31.2926,257.289,19.6145
167.325,26.782,153.443,1044.54
167.9,26.7315,24.6265,29.6969
168.475,26.7608,13.9987,12.6677
169.05,26.798,9.51831,5.1945
169.625,26.8174,6.94368,4.049
170.2,26.8264,4.83261,3.42404
170.775,26.8282,2.89264,3.47194
171.35,26.8244,0.777883,3.87234
171.925,26.8219,-1.49717,2.92068
172,26.822,-1.69041,1.80137